key_resp.corr,trials.label,trials.startVal,trials.stepSizes,trials.maxVal,trials.minVal,trials.thisIndex,trials.thisRepN,trials.thisN,trials.direction,trials.stepSize,trials.stepType,trials.intensity,ISI.started,grating.started,key_resp.started,grating.stopped,trials.response,participant,session,date,expName,psychopyVersion,frameRate,,,trials.thisRepN,trials.intensity,,,key_resp.corr,,trials.thisRepN,,,,,,
0,cont,0.05,"[0.01, 0.01, 0.005, 0.005]",1,0,0,1,0,start,0.01,db,0.05,0.4307953,34.0733291,34.0733291,34.3817239,0,123456,1,2022-09-08_17h10.05.106,experiment 1 02.09.22,2022.2.2,60.05479399,,,1,0.05,,,0,in,1,,,,,,
0,cont,0.05,"[0.01, 0.01, 0.005, 0.005]",1,0,0,2,1,up,0.01,db,0.050057598,0.0010593,36.5133199,36.5133199,36.8129134,0,123456,1,2022-09-08_17h10.05.106,experiment 1 02.09.22,2022.2.2,60.05479399,,,2,0.050057598,,,0,in,2,,,,,,
0,cont,0.05,"[0.01, 0.01, 0.005, 0.005]",1,0,0,3,2,up,0.01,db,0.050115262,0.0019583,38.9608394,38.9608394,39.2605749,0,123456,1,2022-09-08_17h10.05.106,experiment 1 02.09.22,2022.2.2,60.05479399,,,3,0.050115262,,,0,in,3,,,,,,
0,cont,0.05,"[0.01, 0.01, 0.005, 0.005]",1,0,0,4,3,up,0.01,db,0.050172992,0.0012243,41.5253381,41.5253381,41.8248664,0,123456,1,2022-09-08_17h10.05.106,experiment 1 02.09.22,2022.2.2,60.05479399,,,4,0.050172992,,,0,in,4,,,,,,
0,cont,0.05,"[0.01, 0.01, 0.005, 0.005]",1,0,0,5,4,up,0.01,db,0.05023079,0.0010977,43.9230838,43.9230838,44.2225776,0,123456,1,2022-09-08_17h10.05.106,experiment 1 02.09.22,2022.2.2,60.05479399,,,5,0.05023079,,,0,in,5,,,,,,
0,cont,0.05,"[0.01, 0.01, 0.005, 0.005]",1,0,0,6,5,up,0.01,db,0.050288653,0.0011343,46.3541141,46.3541141,46.6536121,1,123456,1,2022-09-08_17h10.05.106,experiment 1 02.09.22,2022.2.2,60.05479399,,,6,0.050288653,,6,0,in,6,,,,,,
1,cont,0.05,"[0.01, 0.01, 0.005, 0.005]",1,0,0,7,6,down,0.01,db,0.05023079,0.0011886,48.751768,48.751768,49.0514024,1,123456,1,2022-09-08_17h10.05.106,experiment 1 02.09.22,2022.2.2,60.05479399,,,7,0.05023079,,,1,cor,7,,,,,,
1,cont,0.05,"[0.01, 0.01, 0.005, 0.005]",1,0,0,8,7,down,0.01,db,0.05023079,0.0012364,51.2495256,51.2495256,51.5490973,1,123456,1,2022-09-08_17h10.05.106,experiment 1 02.09.22,2022.2.2,60.05479399,,,8,0.05023079,,,1,cor,8,,,,,,
1,cont,0.05,"[0.01, 0.01, 0.005, 0.005]",1,0,0,9,8,down,0.01,db,0.05023079,0.0011783,53.7138465,53.7138465,54.0134595,1,123456,1,2022-09-08_17h10.05.106,experiment 1 02.09.22,2022.2.2,60.05479399,,,9,0.05023079,,,1,cor,9,,,,,incorrect,50
1,cont,0.05,"[0.01, 0.01, 0.005, 0.005]",1,0,0,10,9,down,0.01,db,0.050172992,0.0011597,56.2115309,56.2115309,56.511187,1,123456,1,2022-09-08_17h10.05.106,experiment 1 02.09.22,2022.2.2,60.05479399,,,10,0.050172992,,,1,cor,10,,11,,,correct,50
1,cont,0.05,"[0.01, 0.01, 0.005, 0.005]",1,0,0,11,10,down,0.01,db,0.050172992,0.0011452,58.6759887,58.6759887,58.9754624,1,123456,1,2022-09-08_17h10.05.106,experiment 1 02.09.22,2022.2.2,60.05479399,,,11,0.050172992,,,1,cor,11,,,,,,
1,cont,0.05,"[0.01, 0.01, 0.005, 0.005]",1,0,0,12,11,down,0.01,db,0.050172992,0.0011369,61.1902336,61.1902336,61.489752,0,123456,1,2022-09-08_17h10.05.106,experiment 1 02.09.22,2022.2.2,60.05479399,,,12,0.050172992,,,1,cor,12,,,,,,
0,cont,0.05,"[0.01, 0.01, 0.005, 0.005]",1,0,0,13,12,up,0.005,db,0.050201883,0.0011498,63.6547089,63.6547089,63.9541652,0,123456,1,2022-09-08_17h10.05.106,experiment 1 02.09.22,2022.2.2,60.05479399,,,13,0.050201883,,,0,in,13,,,50,,,
0,cont,0.05,"[0.01, 0.01, 0.005, 0.005]",1,0,0,14,13,up,0.005,db,0.05023079,0.0012175,66.1689597,66.1689597,66.4684401,1,123456,1,2022-09-08_17h10.05.106,experiment 1 02.09.22,2022.2.2,60.05479399,,,14,0.05023079,,2,0,in,14,,,,,,
1,cont,0.05,"[0.01, 0.01, 0.005, 0.005]",1,0,0,15,14,up,0.005,db,0.05023079,0.0011328,68.5833138,68.5833138,68.8829268,0,123456,1,2022-09-08_17h10.05.106,experiment 1 02.09.22,2022.2.2,60.05479399,,,15,0.05023079,,,1,cor,15,,,,,,
0,cont,0.05,"[0.01, 0.01, 0.005, 0.005]",1,0,0,16,15,up,0.005,db,0.050259713,0.0011568,71.1642657,71.1642657,71.4637579,1,123456,1,2022-09-08_17h10.05.106,experiment 1 02.09.22,2022.2.2,60.05479399,,,16,0.050259713,,1,0,in,16,,,,,,
1,cont,0.05,"[0.01, 0.01, 0.005, 0.005]",1,0,0,17,16,up,0.005,db,0.050259713,0.0012188,73.7951728,73.7951728,74.0945798,0,123456,1,2022-09-08_17h10.05.106,experiment 1 02.09.22,2022.2.2,60.05479399,,,17,0.050259713,,,1,cor,17,,,,,,
0,cont,0.05,"[0.01, 0.01, 0.005, 0.005]",1,0,0,18,17,up,0.005,db,0.050288653,0.0007915,76.2925855,76.2925855,76.5922621,0,123456,1,2022-09-08_17h10.05.106,experiment 1 02.09.22,2022.2.2,60.05479399,,,18,0.050288653,,,0,in,18,,,,,,
0,cont,0.05,"[0.01, 0.01, 0.005, 0.005]",1,0,0,19,18,up,0.005,db,0.05031761,0.001182,78.7566926,78.7566926,79.0565152,1,123456,1,2022-09-08_17h10.05.106,experiment 1 02.09.22,2022.2.2,60.05479399,,,19,0.05031761,,2,0,in,19,,,,,,
1,cont,0.05,"[0.01, 0.01, 0.005, 0.005]",1,0,0,20,19,up,0.005,db,0.05031761,0.0010332,81.2048372,81.2048372,81.5044772,1,123456,1,2022-09-08_17h10.05.106,experiment 1 02.09.22,2022.2.2,60.05479399,,,20,0.05031761,,,1,cor,20,,,,,,
1,cont,0.05,"[0.01, 0.01, 0.005, 0.005]",1,0,0,21,20,up,0.005,db,0.05031761,0.0011502,83.7191479,83.7191479,84.0187718,0,123456,1,2022-09-08_17h10.05.106,experiment 1 02.09.22,2022.2.2,60.05479399,,,21,0.05031761,,,1,cor,21,,,,,,
0,cont,0.05,"[0.01, 0.01, 0.005, 0.005]",1,0,0,22,21,up,0.005,db,0.050346583,0.0012079,86.2167889,86.2167889,86.5164776,0,123456,1,2022-09-08_17h10.05.106,experiment 1 02.09.22,2022.2.2,60.05479399,,,22,0.050346583,,,0,in,22,,,,,,
0,cont,0.05,"[0.01, 0.01, 0.005, 0.005]",1,0,0,23,22,up,0.005,db,0.050375574,0.0011467,88.6313009,88.6313009,88.9308314,0,123456,1,2022-09-08_17h10.05.106,experiment 1 02.09.22,2022.2.2,60.05479399,,,23,0.050375574,,,0,in,23,,,,,,
0,cont,0.05,"[0.01, 0.01, 0.005, 0.005]",1,0,0,24,23,up,0.005,db,0.05040458,0.0011715,91.0790125,91.0790125,91.3785052,1,123456,1,2022-09-08_17h10.05.106,experiment 1 02.09.22,2022.2.2,60.05479399,,,24,0.05040458,,3,0,in,24,,,,,,
1,cont,0.05,"[0.01, 0.01, 0.005, 0.005]",1,0,0,25,24,up,0.005,db,0.05040458,0.0011773,93.5933825,93.5933825,93.8928367,1,123456,1,2022-09-08_17h10.05.106,experiment 1 02.09.22,2022.2.2,60.05479399,,,25,0.05040458,,,1,cor,25,,,,,,
1,cont,0.05,"[0.01, 0.01, 0.005, 0.005]",1,0,0,26,25,up,0.005,db,0.05040458,0.0011859,96.2908011,96.2908011,96.590283,1,123456,1,2022-09-08_17h10.05.106,experiment 1 02.09.22,2022.2.2,60.05479399,,,26,0.05040458,,,1,cor,26,,,,,,
1,cont,0.05,"[0.01, 0.01, 0.005, 0.005]",1,0,0,27,26,down,0.005,db,0.050375574,0.0012657,98.7050913,98.7050913,99.0048075,1,123456,1,2022-09-08_17h10.05.106,experiment 1 02.09.22,2022.2.2,60.05479399,,,27,0.050375574,,,1,cor,27,,,,,,
1,cont,0.05,"[0.01, 0.01, 0.005, 0.005]",1,0,0,28,27,down,0.005,db,0.050375574,0.0012434,101.1861263,101.1861263,101.4857107,1,123456,1,2022-09-08_17h10.05.106,experiment 1 02.09.22,2022.2.2,60.05479399,,,28,0.050375574,,,1,cor,28,,,,,,
1,cont,0.05,"[0.01, 0.01, 0.005, 0.005]",1,0,0,29,28,down,0.005,db,0.050375574,0.0011866,103.650637,103.650637,103.9500968,0,123456,1,2022-09-08_17h10.05.106,experiment 1 02.09.22,2022.2.2,60.05479399,,,29,0.050375574,,,1,cor,29,,,,,,
0,cont,0.05,"[0.01, 0.01, 0.005, 0.005]",1,0,0,30,29,up,0.005,db,0.05040458,0.0011737,106.1649469,106.1649469,106.4644265,1,123456,1,2022-09-08_17h10.05.106,experiment 1 02.09.22,2022.2.2,60.05479399,,,30,0.05040458,,1,0,in,30,,,,,,
1,cont,0.05,"[0.01, 0.01, 0.005, 0.005]",1,0,0,31,30,up,0.005,db,0.05040458,0.0012259,108.6792591,108.6792591,108.9787602,1,123456,1,2022-09-08_17h10.05.106,experiment 1 02.09.22,2022.2.2,60.05479399,,,31,0.05040458,,,1,cor,31,,,,,,
1,cont,0.05,"[0.01, 0.01, 0.005, 0.005]",1,0,0,32,31,up,0.005,db,0.05040458,0.0011822,111.2767458,111.2767458,111.5764325,1,123456,1,2022-09-08_17h10.05.106,experiment 1 02.09.22,2022.2.2,60.05479399,,,32,0.05040458,,,1,cor,32,,10,,,,
1,cont,0.05,"[0.01, 0.01, 0.005, 0.005]",1,0,0,33,32,down,0.005,db,0.050375574,0.0011863,113.7411149,113.7411149,114.0408083,0,123456,1,2022-09-08_17h10.05.106,experiment 1 02.09.22,2022.2.2,60.05479399,,,33,0.050375574,,,1,cor,33,,,,,,
0,cont,0.05,"[0.01, 0.01, 0.005, 0.005]",1,0,0,34,33,up,0.005,db,0.05040458,0.0011709,116.2886947,116.2886947,116.5884312,0,123456,1,2022-09-08_17h10.05.106,experiment 1 02.09.22,2022.2.2,60.05479399,,,34,0.05040458,,,0,in,34,,,,,,
0,cont,0.05,"[0.01, 0.01, 0.005, 0.005]",1,0,0,35,34,up,0.005,db,0.050433604,0.0011261,118.7697872,118.7697872,119.0693376,1,123456,1,2022-09-08_17h10.05.106,experiment 1 02.09.22,2022.2.2,60.05479399,,,35,0.050433604,,2,0,in,35,,,,,,
1,cont,0.05,"[0.01, 0.01, 0.005, 0.005]",1,0,0,36,35,up,0.005,db,0.050433604,0.0011642,121.2008026,121.2008026,121.5004504,1,123456,1,2022-09-08_17h10.05.106,experiment 1 02.09.22,2022.2.2,60.05479399,,,36,0.050433604,,,1,cor,36,,,,,,
1,cont,0.05,"[0.01, 0.01, 0.005, 0.005]",1,0,0,37,36,up,0.005,db,0.050433604,0.0011971,123.7817913,123.7817913,124.0813178,0,123456,1,2022-09-08_17h10.05.106,experiment 1 02.09.22,2022.2.2,60.05479399,,,37,0.050433604,,,1,cor,37,,,,,,
0,cont,0.05,"[0.01, 0.01, 0.005, 0.005]",1,0,0,38,37,up,0.005,db,0.050462644,0.0011809,126.3126977,126.3126977,126.6122786,1,123456,1,2022-09-08_17h10.05.106,experiment 1 02.09.22,2022.2.2,60.05479399,,,38,0.050462644,,1,0,in,38,,,,,,
1,cont,0.05,"[0.01, 0.01, 0.005, 0.005]",1,0,0,39,38,up,0.005,db,0.050462644,0.0011699,128.7272703,128.7272703,129.0267697,1,123456,1,2022-09-08_17h10.05.106,experiment 1 02.09.22,2022.2.2,60.05479399,,,39,0.050462644,,,1,cor,39,,,,,,
1,cont,0.05,"[0.01, 0.01, 0.005, 0.005]",1,0,0,40,39,up,0.005,db,0.050462644,0.0011523,131.2749139,131.2749139,131.574347,0,123456,1,2022-09-08_17h10.05.106,experiment 1 02.09.22,2022.2.2,60.05479399,,,40,0.050462644,,,1,cor,40,,,,,,
0,cont,0.05,"[0.01, 0.01, 0.005, 0.005]",1,0,0,41,40,up,0.005,db,0.050491701,0.0011306,134.0222866,134.0222866,134.3217857,0,123456,1,2022-09-08_17h10.05.106,experiment 1 02.09.22,2022.2.2,60.05479399,,,41,0.050491701,,,0,in,41,,,,,,
0,cont,0.05,"[0.01, 0.01, 0.005, 0.005]",1,0,0,42,41,up,0.005,db,0.050520775,0.0011121,136.5032749,136.5032749,136.802782,1,123456,1,2022-09-08_17h10.05.106,experiment 1 02.09.22,2022.2.2,60.05479399,,,42,0.050520775,,2,0,in,42,,,,,,
1,cont,0.05,"[0.01, 0.01, 0.005, 0.005]",1,0,0,43,42,up,0.005,db,0.050520775,0.0012163,139.0341376,139.0341376,139.3338641,1,123456,1,2022-09-08_17h10.05.106,experiment 1 02.09.22,2022.2.2,60.05479399,,,43,0.050520775,,,1,cor,43,,,,,,
1,cont,0.05,"[0.01, 0.01, 0.005, 0.005]",1,0,0,44,43,up,0.005,db,0.050520775,0.0011532,142.2312567,142.2312567,142.5308203,1,123456,1,2022-09-08_17h10.05.106,experiment 1 02.09.22,2022.2.2,60.05479399,,,44,0.050520775,,,1,cor,44,,,,,,
1,cont,0.05,"[0.01, 0.01, 0.005, 0.005]",1,0,0,45,44,down,0.005,db,0.050491701,0.0011871,144.6289538,144.6289538,144.9285481,0,123456,1,2022-09-08_17h10.05.106,experiment 1 02.09.22,2022.2.2,60.05479399,,,45,0.050491701,,,1,cor,45,,,,,,
0,cont,0.05,"[0.01, 0.01, 0.005, 0.005]",1,0,0,46,45,up,0.005,db,0.050520775,0.0012306,147.043332,147.043332,147.3428435,1,123456,1,2022-09-08_17h10.05.106,experiment 1 02.09.22,2022.2.2,60.05479399,,,46,0.050520775,,1,0,in,46,,,,,,
1,cont,0.05,"[0.01, 0.01, 0.005, 0.005]",1,0,0,47,46,up,0.005,db,0.050520775,0.0011535,149.5076904,149.5076904,149.8072835,1,123456,1,2022-09-08_17h10.05.106,experiment 1 02.09.22,2022.2.2,60.05479399,,,47,0.050520775,,,1,cor,47,,,,,,
1,cont,0.05,"[0.01, 0.01, 0.005, 0.005]",1,0,0,48,47,up,0.005,db,0.050520775,0.0012073,152.0886367,152.0886367,152.3882709,1,123456,1,2022-09-08_17h10.05.106,experiment 1 02.09.22,2022.2.2,60.05479399,,,48,0.050520775,,,1,cor,48,,,,,,
1,cont,0.05,"[0.01, 0.01, 0.005, 0.005]",1,0,0,49,48,down,0.005,db,0.050491701,0.0011504,154.5363888,154.5363888,154.8358755,1,123456,1,2022-09-08_17h10.05.106,experiment 1 02.09.22,2022.2.2,60.05479399,,,49,0.050491701,,,1,cor,49,,,,,,
1,cont,0.05,"[0.01, 0.01, 0.005, 0.005]",1,0,0,50,49,down,0.005,db,0.050491701,0.001188,156.9507911,156.9507911,157.2503955,0,123456,1,2022-09-08_17h10.05.106,experiment 1 02.09.22,2022.2.2,60.05479399,,,50,0.050491701,,,1,cor,50,,,,,,
0,cont,0.05,"[0.01, 0.01, 0.005, 0.005]",1,0,0,51,50,up,0.005,db,0.050520775,0.001211,159.4317609,159.4317609,159.7313046,0,123456,1,2022-09-08_17h10.05.106,experiment 1 02.09.22,2022.2.2,60.05479399,,,51,0.050520775,,,0,in,51,,,,,,
0,cont,0.05,"[0.01, 0.01, 0.005, 0.005]",1,0,0,52,51,up,0.005,db,0.050549865,0.0011616,161.8295617,161.8295617,162.1290718,1,123456,1,2022-09-08_17h10.05.106,experiment 1 02.09.22,2022.2.2,60.05479399,,,52,0.050549865,,2,0,in,52,,,,,,
1,cont,0.05,"[0.01, 0.01, 0.005, 0.005]",1,0,0,53,52,up,0.005,db,0.050549865,0.0011459,164.2773352,164.2773352,164.5767793,0,123456,1,2022-09-08_17h10.05.106,experiment 1 02.09.22,2022.2.2,60.05479399,,,53,0.050549865,,,1,cor,53,,,,,,
0,cont,0.05,"[0.01, 0.01, 0.005, 0.005]",1,0,0,54,53,up,0.005,db,0.050578973,0.0011762,166.7417838,166.7417838,167.0411362,0,123456,1,2022-09-08_17h10.05.106,experiment 1 02.09.22,2022.2.2,60.05479399,,,54,0.050578973,,,0,in,54,,,,,,
0,cont,0.05,"[0.01, 0.01, 0.005, 0.005]",1,0,0,55,54,up,0.005,db,0.050608097,0.0012104,169.0893989,169.0893989,169.3889341,1,123456,1,2022-09-08_17h10.05.106,experiment 1 02.09.22,2022.2.2,60.05479399,,,55,0.050608097,,2,0,in,55,,,,,,
1,cont,0.05,"[0.01, 0.01, 0.005, 0.005]",1,0,0,56,55,up,0.005,db,0.050608097,0.0011579,171.4872472,171.4872472,171.7866956,1,123456,1,2022-09-08_17h10.05.106,experiment 1 02.09.22,2022.2.2,60.05479399,,,56,0.050608097,,,1,cor,56,,,,,,
1,cont,0.05,"[0.01, 0.01, 0.005, 0.005]",1,0,0,57,56,up,0.005,db,0.050608097,0.0011444,174.1514404,174.1514404,174.4508896,1,123456,1,2022-09-08_17h10.05.106,experiment 1 02.09.22,2022.2.2,60.05479399,,,57,0.050608097,,,1,cor,57,,,,,,
1,cont,0.05,"[0.01, 0.01, 0.005, 0.005]",1,0,0,58,57,down,0.005,db,0.050578973,0.0011224,176.6158166,176.6158166,176.9152792,0,123456,1,2022-09-08_17h10.05.106,experiment 1 02.09.22,2022.2.2,60.05479399,,,58,0.050578973,,,1,cor,58,,,,,,
0,cont,0.05,"[0.01, 0.01, 0.005, 0.005]",1,0,0,59,58,up,0.005,db,0.050608097,0.0010993,179.0801023,179.0801023,179.3797481,1,123456,1,2022-09-08_17h10.05.106,experiment 1 02.09.22,2022.2.2,60.05479399,,,59,0.050608097,,1,0,in,59,,,,,,
1,cont,0.05,"[0.01, 0.01, 0.005, 0.005]",1,0,0,60,59,up,0.005,db,0.050608097,0.0012029,181.4946671,181.4946671,181.7941041,0,123456,1,2022-09-08_17h10.05.106,experiment 1 02.09.22,2022.2.2,60.05479399,,,60,0.050608097,,,1,cor,60,,,,,,
0,cont,0.05,"[0.01, 0.01, 0.005, 0.005]",1,0,0,61,60,up,0.005,db,0.050637237,0.0011188,184.1420862,184.1420862,184.4416314,0,123456,1,2022-09-08_17h10.05.106,experiment 1 02.09.22,2022.2.2,60.05479399,,,61,0.050637237,,,0,in,61,,,,,,
0,cont,0.05,"[0.01, 0.01, 0.005, 0.005]",1,0,0,62,61,up,0.005,db,0.050666395,0.0011702,186.6063489,186.6063489,186.9060119,0,123456,1,2022-09-08_17h10.05.106,experiment 1 02.09.22,2022.2.2,60.05479399,,,62,0.050666395,,,0,in,62,,14,,,,
0,cont,0.05,"[0.01, 0.01, 0.005, 0.005]",1,0,0,63,62,up,0.005,db,0.050695569,0.0011485,189.3371527,189.3371527,189.636737,0,123456,1,2022-09-08_17h10.05.106,experiment 1 02.09.22,2022.2.2,60.05479399,,,63,0.050695569,,,0,in,63,,,,,,
0,cont,0.05,"[0.01, 0.01, 0.005, 0.005]",1,0,0,64,63,up,0.005,db,0.05072476,0.0011653,191.8349232,191.8349232,192.1344072,0,123456,1,2022-09-08_17h10.05.106,experiment 1 02.09.22,2022.2.2,60.05479399,,,64,0.05072476,,,0,in,64,,,,,,
0,cont,0.05,"[0.01, 0.01, 0.005, 0.005]",1,0,0,65,64,up,0.005,db,0.050753968,0.0011979,194.3325851,194.3325851,194.6320132,1,123456,1,2022-09-08_17h10.05.106,experiment 1 02.09.22,2022.2.2,60.05479399,,,65,0.050753968,,5,0,in,65,,,,,,
1,cont,0.05,"[0.01, 0.01, 0.005, 0.005]",1,0,0,66,65,up,0.005,db,0.050753968,0.0010168,196.7469791,196.7469791,197.0464582,1,123456,1,2022-09-08_17h10.05.106,experiment 1 02.09.22,2022.2.2,60.05479399,,,66,0.050753968,,,1,cor,66,,,,,,
1,cont,0.05,"[0.01, 0.01, 0.005, 0.005]",1,0,0,67,66,up,0.005,db,0.050753968,0.0011801,199.3112762,199.3112762,199.6107043,0,123456,1,2022-09-08_17h10.05.106,experiment 1 02.09.22,2022.2.2,60.05479399,,,67,0.050753968,,,1,cor,67,,,,,,
0,cont,0.05,"[0.01, 0.01, 0.005, 0.005]",1,0,0,68,67,up,0.005,db,0.050783193,0.0011431,201.8754893,201.8754893,202.1750141,1,123456,1,2022-09-08_17h10.05.106,experiment 1 02.09.22,2022.2.2,60.05479399,,,68,0.050783193,,1,0,in,68,,,,,,
1,cont,0.05,"[0.01, 0.01, 0.005, 0.005]",1,0,0,69,68,up,0.005,db,0.050783193,0.0012007,204.4063984,204.4063984,204.7060442,0,123456,1,2022-09-08_17h10.05.106,experiment 1 02.09.22,2022.2.2,60.05479399,,,69,0.050783193,,,1,cor,69,,,,,,
0,cont,0.05,"[0.01, 0.01, 0.005, 0.005]",1,0,0,70,69,up,0.005,db,0.050812435,0.0011767,207.0040888,207.0040888,207.3035434,0,123456,1,2022-09-08_17h10.05.106,experiment 1 02.09.22,2022.2.2,60.05479399,,,70,0.050812435,,,0,in,70,,,,,,
0,cont,0.05,"[0.01, 0.01, 0.005, 0.005]",1,0,0,71,70,up,0.005,db,0.050841693,0.0011121,209.4350916,209.4350916,209.7346088,0,123456,1,2022-09-08_17h10.05.106,experiment 1 02.09.22,2022.2.2,60.05479399,,,71,0.050841693,,,0,in,71,,,,,,
0,cont,0.05,"[0.01, 0.01, 0.005, 0.005]",1,0,0,72,71,up,0.005,db,0.050870968,0.0011795,211.8828491,211.8828491,212.1822832,1,123456,1,2022-09-08_17h10.05.106,experiment 1 02.09.22,2022.2.2,60.05479399,,,72,0.050870968,,3,0,in,72,,,,,,
1,cont,0.05,"[0.01, 0.01, 0.005, 0.005]",1,0,0,73,72,up,0.005,db,0.050870968,0.0010536,214.2306382,214.2306382,214.5301496,0,123456,1,2022-09-08_17h10.05.106,experiment 1 02.09.22,2022.2.2,60.05479399,,,73,0.050870968,,,1,cor,73,,,,,,
0,cont,0.05,"[0.01, 0.01, 0.005, 0.005]",1,0,0,74,73,up,0.005,db,0.05090026,0.0012013,217.2277232,217.2277232,217.5274038,1,123456,1,2022-09-08_17h10.05.106,experiment 1 02.09.22,2022.2.2,60.05479399,,,74,0.05090026,,1,0,in,74,,,,,,
1,cont,0.05,"[0.01, 0.01, 0.005, 0.005]",1,0,0,75,74,up,0.005,db,0.05090026,0.0012338,219.6588303,219.6588303,219.9584053,0,123456,1,2022-09-08_17h10.05.106,experiment 1 02.09.22,2022.2.2,60.05479399,,,75,0.05090026,,,1,cor,75,,,,,,
0,cont,0.05,"[0.01, 0.01, 0.005, 0.005]",1,0,0,76,75,up,0.005,db,0.050929569,0.0011947,222.1065966,222.1065966,222.4060799,1,123456,1,2022-09-08_17h10.05.106,experiment 1 02.09.22,2022.2.2,60.05479399,,,76,0.050929569,,1,0,in,76,,,,,,
1,cont,0.05,"[0.01, 0.01, 0.005, 0.005]",1,0,0,77,76,up,0.005,db,0.050929569,0.0011337,224.5209774,224.5209774,224.8205581,0,123456,1,2022-09-08_17h10.05.106,experiment 1 02.09.22,2022.2.2,60.05479399,,,77,0.050929569,,,1,cor,77,,,,,,
0,cont,0.05,"[0.01, 0.01, 0.005, 0.005]",1,0,0,78,77,up,0.005,db,0.050958895,0.0011886,227.035252,227.035252,227.3348434,1,123456,1,2022-09-08_17h10.05.106,experiment 1 02.09.22,2022.2.2,60.05479399,,,78,0.050958895,,1,0,in,78,,,,,,
1,cont,0.05,"[0.01, 0.01, 0.005, 0.005]",1,0,0,79,78,up,0.005,db,0.050958895,0.0011721,229.4330469,229.4330469,229.7325882,0,123456,1,2022-09-08_17h10.05.106,experiment 1 02.09.22,2022.2.2,60.05479399,,,79,0.050958895,,,1,cor,79,,,,,,
0,cont,0.05,"[0.01, 0.01, 0.005, 0.005]",1,0,0,80,79,up,0.005,db,0.050988238,0.0012569,231.8641051,231.8641051,232.1637066,0,123456,1,2022-09-08_17h10.05.106,experiment 1 02.09.22,2022.2.2,60.05479399,,,80,0.050988238,,,0,in,80,,,,,,
0,cont,0.05,"[0.01, 0.01, 0.005, 0.005]",1,0,0,81,80,up,0.005,db,0.051017598,0.0011476,234.2451571,234.2451571,234.5449655,1,123456,1,2022-09-08_17h10.05.106,experiment 1 02.09.22,2022.2.2,60.05479399,,,81,0.051017598,,2,0,in,81,,,,,,
1,cont,0.05,"[0.01, 0.01, 0.005, 0.005]",1,0,0,82,81,up,0.005,db,0.051017598,0.0010928,236.6262481,236.6262481,236.9257913,1,123456,1,2022-09-08_17h10.05.106,experiment 1 02.09.22,2022.2.2,60.05479399,,,82,0.051017598,,,1,cor,82,,,,,,
1,cont,0.05,"[0.01, 0.01, 0.005, 0.005]",1,0,0,83,82,up,0.005,db,0.051017598,0.0012126,239.0906936,239.0906936,239.3902061,0,123456,1,2022-09-08_17h10.05.106,experiment 1 02.09.22,2022.2.2,60.05479399,,,83,0.051017598,,,1,cor,83,,,,,,
0,cont,0.05,"[0.01, 0.01, 0.005, 0.005]",1,0,0,84,83,up,0.005,db,0.051046974,0.0011184,241.4884476,241.4884476,241.7881231,0,123456,1,2022-09-08_17h10.05.106,experiment 1 02.09.22,2022.2.2,60.05479399,,,84,0.051046974,,,0,in,84,,15,,,,
0,cont,0.05,"[0.01, 0.01, 0.005, 0.005]",1,0,0,85,84,up,0.005,db,0.051076368,0.0011479,243.8861818,243.8861818,244.1858046,1,123456,1,2022-09-08_17h10.05.106,experiment 1 02.09.22,2022.2.2,60.05479399,,,85,0.051076368,,2,0,in,85,,,,,,
1,cont,0.05,"[0.01, 0.01, 0.005, 0.005]",1,0,0,86,85,up,0.005,db,0.051076368,0.0011219,246.3673024,246.3673024,246.6667301,0,123456,1,2022-09-08_17h10.05.106,experiment 1 02.09.22,2022.2.2,60.05479399,,,86,0.051076368,,,1,cor,86,,,,,,
0,cont,0.05,"[0.01, 0.01, 0.005, 0.005]",1,0,0,87,86,up,0.005,db,0.051105778,0.0012849,248.815276,248.815276,249.1145426,0,123456,1,2022-09-08_17h10.05.106,experiment 1 02.09.22,2022.2.2,60.05479399,,,87,0.051105778,,,0,in,87,,,,,,
0,cont,0.05,"[0.01, 0.01, 0.005, 0.005]",1,0,0,88,87,up,0.005,db,0.051135205,0.0011247,251.2794865,251.2794865,251.5789813,1,123456,1,2022-09-08_17h10.05.106,experiment 1 02.09.22,2022.2.2,60.05479399,,,88,0.051135205,,2,0,in,88,,,,,,
1,cont,0.05,"[0.01, 0.01, 0.005, 0.005]",1,0,0,89,88,up,0.005,db,0.051135205,0.0011734,254.3764841,254.3764841,254.6759044,0,123456,1,2022-09-08_17h10.05.106,experiment 1 02.09.22,2022.2.2,60.05479399,,,89,0.051135205,,,1,cor,89,,,,,,
0,cont,0.05,"[0.01, 0.01, 0.005, 0.005]",1,0,0,90,89,up,0.005,db,0.05116465,0.0011663,257.0406114,257.0406114,257.340131,0,123456,1,2022-09-08_17h10.05.106,experiment 1 02.09.22,2022.2.2,60.05479399,,,90,0.05116465,,,0,in,90,,,,,,
0,cont,0.05,"[0.01, 0.01, 0.005, 0.005]",1,0,0,91,90,up,0.005,db,0.051194111,0.0011796,259.5548715,259.5548715,259.854296,0,123456,1,2022-09-08_17h10.05.106,experiment 1 02.09.22,2022.2.2,60.05479399,,,91,0.051194111,,,0,in,91,,,,,,
0,cont,0.05,"[0.01, 0.01, 0.005, 0.005]",1,0,0,92,91,up,0.005,db,0.051223589,0.0010573,261.969339,261.969339,262.2688776,1,123456,1,2022-09-08_17h10.05.106,experiment 1 02.09.22,2022.2.2,60.05479399,,,92,0.051223589,,3,0,in,92,,,,,,
1,cont,0.05,"[0.01, 0.01, 0.005, 0.005]",1,0,0,93,92,up,0.005,db,0.051223589,0.0011639,264.4003446,264.4003446,264.700008,0,123456,1,2022-09-08_17h10.05.106,experiment 1 02.09.22,2022.2.2,60.05479399,,,93,0.051223589,,,1,cor,93,,,0.051194111,,,
0,cont,0.05,"[0.01, 0.01, 0.005, 0.005]",1,0,0,94,93,up,0.005,db,0.051253084,0.0011237,267.0477995,267.0477995,267.3474686,1,123456,1,2022-09-08_17h10.05.106,experiment 1 02.09.22,2022.2.2,60.05479399,,,94,0.051253084,,1,0,in,94,,,0.051223589,,,
1,cont,0.05,"[0.01, 0.01, 0.005, 0.005]",1,0,0,95,94,up,0.005,db,0.051253084,0.001131,269.4789458,269.4789458,269.7784986,1,123456,1,2022-09-08_17h10.05.106,experiment 1 02.09.22,2022.2.2,60.05479399,,,95,0.051253084,,,1,cor,95,,,0.051223589,,,
1,cont,0.05,"[0.01, 0.01, 0.005, 0.005]",1,0,0,96,95,up,0.005,db,0.051253084,0.001187,272.1431289,272.1431289,272.4428019,1,123456,1,2022-09-08_17h10.05.106,experiment 1 02.09.22,2022.2.2,60.05479399,,,96,0.051253084,,,1,cor,96,,,0.051253084,0.05123834,,
1,cont,0.05,"[0.01, 0.01, 0.005, 0.005]",1,0,0,97,96,down,0.005,db,0.051223589,0.0011818,274.7240311,274.7240311,275.0237015,1,123456,1,2022-09-08_17h10.05.106,experiment 1 02.09.22,2022.2.2,60.05479399,,,97,0.051223589,,,1,cor,97,,,0.051253084,,,
1,cont,0.05,"[0.01, 0.01, 0.005, 0.005]",1,0,0,98,97,down,0.005,db,0.051223589,0.0011816,277.2383628,277.2383628,277.5380127,0,123456,1,2022-09-08_17h10.05.106,experiment 1 02.09.22,2022.2.2,60.05479399,,,98,0.051223589,,,1,cor,98,,,0.051253084,,,
0,cont,0.05,"[0.01, 0.01, 0.005, 0.005]",1,0,0,99,98,up,0.005,db,0.051253084,0.0011521,279.6695381,279.6695381,279.9689496,0,123456,1,2022-09-08_17h10.05.106,experiment 1 02.09.22,2022.2.2,60.05479399,,,99,0.051253084,,,0,in,99,,,0.051223589,,,
0,cont,0.05,"[0.01, 0.01, 0.005, 0.005]",1,0,0,100,99,up,0.005,db,0.051282596,0.0011729,282.4503094,282.4503094,282.7497579,0,123456,1,2022-09-08_17h10.05.106,experiment 1 02.09.22,2022.2.2,60.05479399,,,100,0.051282596,,2,0,in,100,,,0.051223589,,,
,,,,,,,,,,,,,,,,,,,,,,,,,,,,,,,,,,,0.051253084,,,
,,,,,,,,,,,,,,,,,,,,,,,,,,,,,,,,,,,0.051282596,,,
