trials.thisN,num_distr,mouse.time,mouse.clicked_name,,,,,
0,5,2.1379246,['target'],,,,,
1,5,1.4416736,['target'],,,,,
3,5,1.2296696,['target'],,,,,
4,5,1.1368652,['target'],,,,,
5,5,1.0985455,['target'],,,,,
15,5,1.0866273,['target'],,,,,
17,5,1.273977,['target'],,MEAN RT,,,
19,5,1.1524705,['target'],,size (5),1.261355676,,
20,5,1.1125967,['target'],, size (10),1.314500333,,
23,5,1.2386587,['target'],,,,,
24,5,1.1979596,['target'],,slope,(y2-y1)/(x2-x1),,
25,5,1.0664858,['target'],,,x2 = 10,y2 = 1.314500333,
26,5,0.9695843,['target'],,,x1 = 5,y1 = 1.261355676,
29,5,1.221979,['target'],,,,,
30,5,1.2171701,['target'],,slope,0.010628931,,
32,5,1.0453861,['target'],,,,,
34,5,1.2913236,['target'],,,,,
35,5,1.3210098,['target'],,,,,
36,5,1.0752371,['target'],,,,,
40,5,0.9643152,['target'],,,,,
43,5,1.0476959,['target'],,,,,
44,5,1.1045718,['target'],,,,,
46,5,1.1827554,['target'],,,,,
48,5,1.0725067,['target'],,,,,
49,5,0.9335719,['target'],,,,,
52,5,1.2824734,['target'],,,,,
56,5,1.7420147,['target'],,,,,
57,5,1.5007236,['target'],,,,,
58,5,1.2130716,['target'],,,,,
59,5,1.4269761,['target'],,,,,
64,5,3.1419179,['target'],,,,,
66,5,1.3651063,['target'],,,,,
71,5,1.0543078,['target'],,,,,
72,5,0.9057195,['target'],,,,,
78,5,1.3533394,['target'],,,,,
79,5,1.303396,['target'],,,,,
80,5,1.2763643,['target'],,,,,
83,5,1.0062577,['target'],,,,,
84,5,1.2750705,['target'],,,,,
86,5,0.8286532,['target'],,,,,
87,5,0.9587709,['target'],,,,,
92,5,1.0030375,['target'],,,,,
94,5,1.2477819,['target'],,,,,
97,5,0.9291674,['target'],,,,,
102,5,1.267677,['target'],,,,,
103,5,1.4225515,['target'],,,,,
107,5,2.4636766,['target'],,,,,
108,5,1.3727892,['target'],,,,,
110,5,1.3876237,['target'],,,,,
111,5,1.3037017,['target'],,,,,
115,5,1.0687584,['target'],,,,,
117,5,1.0902753,['target'],,,,,
118,5,0.9483597,['target'],,,,,
119,5,1.053331,['target'],,,,,
121,5,1.1975415,['target'],,,,,
122,5,0.8905182,['target'],,,,,
123,5,0.93555,['target'],,,,,
124,5,0.9164728,['target'],,,,,
126,5,1.406175,['target'],,,,,
127,5,1.0390183,['target'],,,,,
132,5,1.0669208,['target'],,,,,
134,5,0.9743747,['target'],,,,,
136,5,0.8847125,['target'],,,,,
139,5,1.4818037,['target'],,,,,
140,5,1.1212429,['target'],,,,,
141,5,0.8218318,['target'],,,,,
146,5,1.0460656,['target'],,,,,
147,5,1.1802039,['target'],,,,,
149,5,0.865785,['target'],,,,,
152,5,0.9243934,['target'],,,,,
156,5,2.106471,['target'],,,,,
158,5,1.2242703,['target'],,,,,
159,5,1.1633825,['target'],,,,,
160,5,1.3206383,['target'],,,,,
161,5,0.898582,['target'],,,,,
162,5,0.7730139,['target'],,,,,
164,5,1.2723668,['target'],,,,,
165,5,0.9401257,['target'],,,,,
167,5,1.6420958,['target'],,,,,
168,5,1.071659,['target'],,,,,
171,5,1.0404996,['target'],,,,,
174,5,1.2432273,['target'],,,,,
176,5,0.9965069,['target'],,,,,
178,5,0.9700473,['target'],,,,,
179,5,1.1605756,['target'],,,,,
181,5,1.1472144,['target'],,,,,
184,5,1.7020655,['target'],,,,,
186,5,1.3532656,['target'],,,,,
187,5,0.9778393,['target'],,,,,
189,5,1.0711159,['target'],,,,,
190,5,1.1704747,['target'],,,,,
191,5,1.2101255,['target'],,,,,
193,5,1.2977569,['target'],,,,,
194,5,1.065884,['target'],,,,,
198,5,1.133585,['target'],,,,,
2,5,1.370782283,['target'],,,,,
4,5,1.158032977,['target'],,,,,
5,5,1.138623406,['target'],,,,,
7,5,1.314030749,['target'],,,,,
9,5,1.086274314,['target'],,,,,
11,5,1.025037714,['target'],,,,,
12,5,0.934174328,['target'],,,,,
14,5,1.447976583,['target'],,,,,
17,5,1.522677807,['target'],,,,,
19,5,1.195199644,['target'],,,,,
20,5,1.356682887,['target'],,,,,
24,5,1.145478169,['target'],,,,,
25,5,1.149488092,['target'],,,,,
26,5,1.718168708,['target'],,,,,
27,5,1.400952999,['target'],,,,,
28,5,1.600411908,['target'],,,,,
31,5,0.9623646,['target'],,,,,
34,5,1.02639375,['target'],,,,,
35,5,1.218004502,['target'],,,,,
36,5,1.215653718,['target'],,,,,
38,5,1.96582983,['target'],,,,,
39,5,1.928864821,['target'],,,,,
40,5,1.087822588,['target'],,,,,
42,5,1.364971212,['target'],,,,,
45,5,1.718555787,['target'],,,,,
46,5,1.478616369,['target'],,,,,
48,5,1.116187436,['target'],,,,,
56,5,1.379784661,['target'],,,,,
57,5,1.297931715,['target'],,,,,
59,5,1.313850859,['target'],,,,,
60,5,1.141131929,['target'],,,,,
62,5,1.384338075,['target'],,,,,
66,5,1.18084476,['target'],,,,,
67,5,1.297618668,['target'],,,,,
68,5,1.259152604,['target'],,,,,
70,5,1.096016068,['target'],,,,,
71,5,0.88748102,['target'],,,,,
74,5,1.420937722,['target'],,,,,
75,5,1.087579319,['target'],,,,,
76,5,1.110274247,['target'],,,,,
77,5,1.305509124,['target'],,,,,
78,5,1.248458912,['target'],,,,,
79,5,1.521657945,['target'],,,,,
82,5,0.889143222,['target'],,,,,
86,5,1.076340491,['target'],,,,,
89,5,1.289403915,['target'],,,,,
91,5,1.597976222,['target'],,,,,
92,5,1.27937858,['target'],,,,,
96,5,1.284054935,['target'],,,,,
98,5,1.078864587,['target'],,,,,
100,5,1.152019524,['target'],,,,,
101,5,1.00091985,['target'],,,,,
102,5,0.93195162,['target'],,,,,
104,5,1.546329543,['target'],,,,,
105,5,1.188362282,['target'],,,,,
112,5,1.253295954,['target'],,,,,
119,5,1.017714781,['target'],,,,,
123,5,1.150993213,['target'],,,,,
124,5,1.00528146,['target'],,,,,
128,5,1.691979064,['target'],,,,,
129,5,1.588192344,['target'],,,,,
133,5,1.044827532,['target'],,,,,
138,5,1.61043043,['target'],,,,,
141,5,1.649322381,['target'],,,,,
142,5,1.494587468,['target'],,,,,
145,5,1.131129294,['target'],,,,,
146,5,1.179453767,['target'],,,,,
148,5,1.105911053,['target'],,,,,
150,5,1.530771372,['target'],,,,,
152,5,1.261497106,['target'],,,,,
153,5,1.634379292,['target'],,,,,
154,5,1.280466341,['target'],,,,,
160,5,1.319317814,['target'],,,,,
161,5,1.487064432,['target'],,,,,
164,5,1.039303066,['target'],,,,,
165,5,1.200644334,['target'],,,,,
166,5,1.283554059,['target'],,,,,
167,5,1.287778241,['target'],,,,,
170,5,1.508734453,['target'],,,,,
171,5,1.302625403,['target'],,,,,
173,5,1.54815928,['target'],,,,,
183,5,1.328906899,['target'],,,,,
184,5,1.54359305,['target'],,,,,
186,5,1.37000389,['target'],,,,,
187,5,1.140980077,['target'],,,,,
189,5,1.548796846,['target'],,,,,
190,5,0.909274015,['target'],,,,,
195,5,1.04677542,['target'],,,,,
199,5,1.449951703,['target'],,,,,
2,5,1.370782283,['target'],,,,,
4,5,1.158032977,['target'],,,,,
5,5,1.138623406,['target'],,,,,
7,5,1.314030749,['target'],,,,,
9,5,1.086274314,['target'],,,,,
11,5,1.025037714,['target'],,,,,
12,5,0.934174328,['target'],,,,,
14,5,1.447976583,['target'],,,,,
17,5,1.522677807,['target'],,,,,
19,5,1.195199644,['target'],,,,,
20,5,1.356682887,['target'],,,,,
24,5,1.145478169,['target'],,,,,
25,5,1.149488092,['target'],,,,,
26,5,1.718168708,['target'],,,,,
27,5,1.400952999,['target'],,,,,
28,5,1.600411908,['target'],,,,,
31,5,0.9623646,['target'],,,,,
34,5,1.02639375,['target'],,,,,
35,5,1.218004502,['target'],,,,,
36,5,1.215653718,['target'],,,,,
38,5,1.96582983,['target'],,,,,
39,5,1.928864821,['target'],,,,,
40,5,1.087822588,['target'],,,,,
42,5,1.364971212,['target'],,,,,
45,5,1.718555787,['target'],,,,,
46,5,1.478616369,['target'],,,,,
48,5,1.116187436,['target'],,,,,
56,5,1.379784661,['target'],,,,,
57,5,1.297931715,['target'],,,,,
59,5,1.313850859,['target'],,,,,
60,5,1.141131929,['target'],,,,,
62,5,1.384338075,['target'],,,,,
66,5,1.18084476,['target'],,,,,
67,5,1.297618668,['target'],,,,,
68,5,1.259152604,['target'],,,,,
70,5,1.096016068,['target'],,,,,
71,5,0.88748102,['target'],,,,,
74,5,1.420937722,['target'],,,,,
75,5,1.087579319,['target'],,,,,
76,5,1.110274247,['target'],,,,,
77,5,1.305509124,['target'],,,,,
78,5,1.248458912,['target'],,,,,
79,5,1.521657945,['target'],,,,,
82,5,0.889143222,['target'],,,,,
86,5,1.076340491,['target'],,,,,
89,5,1.289403915,['target'],,,,,
91,5,1.597976222,['target'],,,,,
92,5,1.27937858,['target'],,,,,
96,5,1.284054935,['target'],,,,,
98,5,1.078864587,['target'],,,,,
100,5,1.152019524,['target'],,,,,
101,5,1.00091985,['target'],,,,,
102,5,0.93195162,['target'],,,,,
104,5,1.546329543,['target'],,,,,
105,5,1.188362282,['target'],,,,,
112,5,1.253295954,['target'],,,,,
119,5,1.017714781,['target'],,,,,
123,5,1.150993213,['target'],,,,,
124,5,1.00528146,['target'],,,,,
128,5,1.691979064,['target'],,,,,
129,5,1.588192344,['target'],,,,,
133,5,1.044827532,['target'],,,,,
138,5,1.61043043,['target'],,,,,
141,5,1.649322381,['target'],,,,,
142,5,1.494587468,['target'],,,,,
145,5,1.131129294,['target'],,,,,
146,5,1.179453767,['target'],,,,,
148,5,1.105911053,['target'],,,,,
150,5,1.530771372,['target'],,,,,
152,5,1.261497106,['target'],,,,,
153,5,1.634379292,['target'],,,,,
154,5,1.280466341,['target'],,,,,
160,5,1.319317814,['target'],,,,,
161,5,1.487064432,['target'],,,,,
164,5,1.039303066,['target'],,,,,
165,5,1.200644334,['target'],,,,,
166,5,1.283554059,['target'],,,,,
167,5,1.287778241,['target'],,,,,
170,5,1.508734453,['target'],,,,,
171,5,1.302625403,['target'],,,,,
173,5,1.54815928,['target'],,,,,
183,5,1.328906899,['target'],,,,,
184,5,1.54359305,['target'],,,,,
186,5,1.37000389,['target'],,,,,
187,5,1.140980077,['target'],,,,,
189,5,1.548796846,['target'],,,,,
190,5,0.909274015,['target'],,,,,
195,5,1.04677542,['target'],,,,,
199,5,1.449951703,['target'],,,,,
3,5,1.5322766,['target'],,,,,
5,5,1.2839191,['target'],,,,,
6,5,1.8082169,['target'],,,,,
8,5,1.9613941,['target'],,,,,
10,5,1.7136723,['target'],,,,,
14,5,1.7196563,['target'],,,,,
15,5,1.0922365,['target'],,,,,
17,5,1.2803892,['target'],,,,,
18,5,1.0788733,['target'],,,,,
19,5,1.4091596,['target'],,,,,
22,5,1.3026961,['target'],,,,,
23,5,1.5473565,['target'],,,,,
24,5,1.121396,['target'],,,,,
28,5,1.6917273,['target'],,,,,
29,5,1.4539713,['target'],,,,,
34,5,1.8471128,['target'],,,,,
38,5,1.4336487,['target'],,,,,
39,5,1.4473509,['target'],,,,,
41,5,1.4592027,['target'],,,,,
42,5,1.5139965,['target'],,,,,
46,5,1.7135045,['target'],,,,,
48,5,1.9901276,['target'],,,,,
49,5,1.449392,['target'],,,,,
51,5,1.5432159,['target'],,,,,
56,5,1.3355315,['target'],,,,,
57,5,1.2671448,['target'],,,,,
65,5,1.559235,['target'],,,,,
66,5,1.2478838,['target'],,,,,
69,5,1.1807161,['target'],,,,,
73,5,1.0022171,['target'],,,,,
74,5,1.0406328,['target'],,,,,
76,5,1.2141202,['target'],,,,,
80,5,1.4241712,['target'],,,,,
81,5,0.9239594,['target'],,,,,
82,5,1.440752,['target'],,,,,
91,5,1.2649401,['target'],,,,,
93,5,0.9386243,['target'],,,,,
97,5,0.9393048,['target'],,,,,
98,5,0.861136,['target'],,,,,
101,5,1.3740029,['target'],,,,,
102,5,1.6451288,['target'],,,,,
103,5,1.4651093,['target'],,,,,
104,5,1.0936565,['target'],,,,,
105,5,1.2544782,['target'],,,,,
110,5,1.0101535,['target'],,,,,
111,5,1.4007201,['target'],,,,,
112,5,1.0679193,['target'],,,,,
114,5,1.5524774,['target'],,,,,
115,5,0.81615,['target'],,,,,
117,5,1.8132802,['target'],,,,,
119,5,1.5802363,['target'],,,,,
121,5,1.3250902,['target'],,,,,
125,5,1.3493673,['target'],,,,,
127,5,2.0958024,['target'],,,,,
128,5,1.4728534,['target'],,,,,
129,5,1.0408129,['target'],,,,,
130,5,1.1235313,['target'],,,,,
133,5,0.9375148,['target'],,,,,
135,5,1.1518997,['target'],,,,,
137,5,0.9416817,['target'],,,,,
139,5,1.0995985,['target'],,,,,
144,5,1.3405267,['target'],,,,,
145,5,1.1111922,['target'],,,,,
146,5,1.3003355,['target'],,,,,
148,5,1.2504189,['target'],,,,,
149,5,1.0104682,['target'],,,,,
155,5,1.0287706,['target'],,,,,
157,5,1.0996158,['target'],,,,,
158,5,1.0415056,['target'],,,,,
159,5,1.119203,['target'],,,,,
160,5,1.2132831,['target'],,,,,
164,5,1.4613173,['target'],,,,,
165,5,1.0808606,['target'],,,,,
168,5,1.213672,['target'],,,,,
175,5,1.2757717,['target'],,,,,
176,5,1.0726587,['target'],,,,,
177,5,1.1810945,['target'],,,,,
179,5,1.1755556,['target'],,,,,
180,5,1.0544956,['target'],,,,,
181,5,1.3687484,['target'],,,,,
184,5,1.121698,['target'],,,,,
185,5,0.9675887,['target'],,,,,
189,5,1.3390032,['target'],,,,,
190,5,1.0506599,['target'],,,,,
191,5,2.0778504,['target'],,,,,
194,5,2.8559681,['target'],,,,,
196,5,1.1316091,['target'],,,,,
197,5,1.2412057,['target'],,,,,
198,5,1.3746728,['target'],,,,,
199,5,1.147244,['target'],,,,,
10,5,0.9107266,['target'],,,,,
13,5,1.1804568,['target'],,,,,
18,5,1.1740226,['target'],,,,,
20,5,1.3240578,['target'],,,,,
23,5,1.7158619,['target'],,,,,
25,5,1.1043485,['target'],,,,,
26,5,1.5225907,['target'],,,,,
27,5,1.3682305,['target'],,,,,
28,5,1.5632103,['target'],,,,,
29,5,1.0061008,['target'],,,,,
35,5,1.1671617,['target'],,,,,
36,5,0.9902818,['target'],,,,,
42,5,1.0363001,['target'],,,,,
46,5,1.3214367,['target'],,,,,
48,5,1.0558318,['target'],,,,,
52,5,0.8749887,['target'],,,,,
55,5,1.1276758,['target'],,,,,
57,5,1.4997289,['target'],,,,,
60,5,1.139927,['target'],,,,,
64,5,1.1123943,['target'],,,,,
68,5,2.1399249,['target'],,,,,
71,5,0.8818585,['target'],,,,,
72,5,1.5686901,['target'],,,,,
73,5,0.8988088,['target'],,,,,
76,5,0.9715421,['target'],,,,,
77,5,0.9202567,['target'],,,,,
80,5,1.1776681,['target'],,,,,
82,5,0.9211392,['target'],,,,,
86,5,1.3890688,['target'],,,,,
89,5,0.982242,['target'],,,,,
90,5,1.3854544,['target'],,,,,
91,5,1.2938321,['target'],,,,,
93,5,1.5621071,['target'],,,,,
94,5,1.5378916,['target'],,,,,
95,5,0.9803899,['target'],,,,,
96,5,1.4115644,['target'],,,,,
101,5,1.4262727,['target'],,,,,
102,5,1.1228132,['target'],,,,,
103,5,1.2310514,['target'],,,,,
104,5,1.0412924,['target'],,,,,
107,5,1.2035415,['target'],,,,,
108,5,0.8493642,['target'],,,,,
112,5,1.5690572,['target'],,,,,
119,5,1.0205062,['target'],,,,,
120,5,1.2876177,['target'],,,,,
121,5,1.0240094,['target'],,,,,
122,5,1.0065676,['target'],,,,,
123,5,1.0140497,['target'],,,,,
127,5,1.0279614,['target'],,,,,
128,5,1.1795736,['target'],,,,,
129,5,1.1516469,['target'],,,,,
131,5,1.2867756,['target'],,,,,
135,5,1.2637443,['target'],,,,,
137,5,0.8645468,['target'],,,,,
139,5,1.0866143,['target'],,,,,
140,5,1.4826649,['target'],,,,,
141,5,0.9679921,['target'],,,,,
142,5,1.361809,['target'],,,,,
143,5,1.4018226,['target'],,,,,
145,5,0.8710198,['target'],,,,,
147,5,1.4334874,['target'],,,,,
150,5,1.2122021,['target'],,,,,
151,5,1.2793144,['target'],,,,,
153,5,1.1439932,['target'],,,,,
155,5,1.2497307,['target'],,,,,
158,5,1.3694728,['target'],,,,,
159,5,1.3247587,['target'],,,,,
163,5,1.0825747,['target'],,,,,
165,5,1.0325054,['target'],,,,,
166,5,1.1027513,['target'],,,,,
168,5,1.1678306,['target'],,,,,
169,5,1.1221998,['target'],,,,,
170,5,0.8852113,['target'],,,,,
172,5,1.0968075,['target'],,,,,
173,5,1.0908351,['target'],,,,,
175,5,0.8966435,['target'],,,,,
176,5,1.0182081,['target'],,,,,
178,5,0.9337379,['target'],,,,,
179,5,1.2080417,['target'],,,,,
182,5,1.4156256,['target'],,,,,
184,5,1.0185282,['target'],,,,,
185,5,1.1898338,['target'],,,,,
186,5,0.9854741,['target'],,,,,
187,5,1.1585045,['target'],,,,,
188,5,1.0498946,['target'],,,,,
195,5,1.4066462,['target'],,,,,
197,5,2.2143732,['target'],,,,,
199,5,1.2694322,['target'],,,,,
2,10,1.9904479,['target'],,,,,
6,10,1.0965786,['target'],,,,,
7,10,1.2067898,['target'],,,,,
8,10,1.3695452,['target'],,,,,
9,10,0.9268464,['target'],,,,,
10,10,0.9178184,['target'],,,,,
11,10,1.4963371,['target'],,,,,
12,10,1.0486824,['target'],,,,,
13,10,1.1493782,['target'],,,,,
14,10,1.2273613,['target'],,,,,
16,10,0.958455,['target'],,,,,
18,10,1.425017,['target'],,,,,
21,10,1.5060223,['target'],,,,,
22,10,1.3027632,['target'],,,,,
27,10,1.741214,['target'],,,,,
28,10,1.1258633,['target'],,,,,
31,10,1.5841287,['target'],,,,,
33,10,1.0620718,['target'],,,,,
37,10,1.5745122,['target'],,,,,
38,10,0.8853004,['target'],,,,,
39,10,0.7823818,['target'],,,,,
41,10,0.9346772,['target'],,,,,
42,10,1.8657103,['target'],,,,,
45,10,0.9952608,['target'],,,,,
47,10,1.0318697,['target'],,,,,
50,10,0.9471311,['target'],,,,,
51,10,1.3330829,['target'],,,,,
53,10,1.686916,['target'],,,,,
54,10,1.6475926,['target'],,,,,
55,10,1.9880786,['target'],,,,,
60,10,1.2282545,['target'],,,,,
61,10,1.9184885,['target'],,,,,
62,10,1.4671676,['target'],,,,,
63,10,1.4056418,['target'],,,,,
65,10,1.4824731,['target'],,,,,
67,10,0.9741059,['target'],,,,,
68,10,2.1321388,['target'],,,,,
69,10,1.3301745,['target'],,,,,
70,10,0.977249,['target'],,,,,
73,10,1.1435771,['target'],,,,,
74,10,1.4929447,['target'],,,,,
75,10,1.2982637,['target'],,,,,
76,10,1.2953706,['target'],,,,,
77,10,1.1319814,['target'],,,,,
81,10,1.2439127,['target'],,,,,
82,10,1.3321551,['target'],,,,,
85,10,1.1319894,['target'],,,,,
88,10,1.0878247,['target'],,,,,
89,10,0.9615634,['target'],,,,,
90,10,1.1730004,['target'],,,,,
91,10,1.1190868,['target'],,,,,
93,10,1.0700327,['target'],,,,,
95,10,1.2137251,['target'],,,,,
96,10,1.4597277,['target'],,,,,
98,10,1.027311,['target'],,,,,
99,10,1.3363308,['target'],,,,,
100,10,1.1292856,['target'],,,,,
101,10,1.3123706,['target'],,,,,
104,10,1.5090975,['target'],,,,,
105,10,1.1743535,['target'],,,,,
106,10,1.1607244,['target'],,,,,
109,10,1.1717967,['target'],,,,,
112,10,1.0900073,['target'],,,,,
113,10,1.2841699,['target'],,,,,
114,10,1.127109,['target'],,,,,
116,10,1.3118854,['target'],,,,,
120,10,1.1067587,['target'],,,,,
125,10,0.9226128,['target'],,,,,
128,10,1.3541885,['target'],,,,,
129,10,1.2706891,['target'],,,,,
130,10,1.790942,['target'],,,,,
131,10,1.2294648,['target'],,,,,
133,10,1.7983203,['target'],,,,,
135,10,0.8544548,['target'],,,,,
137,10,1.5773626,['target'],,,,,
138,10,1.8669948,['target'],,,,,
142,10,1.4331513,['target'],,,,,
143,10,0.996346,['target'],,,,,
144,10,0.9658669,['target'],,,,,
145,10,0.9865206,['target'],,,,,
148,10,1.4443902,['target'],,,,,
150,10,1.1823507,['target'],,,,,
151,10,0.8681688,['target'],,,,,
153,10,1.0298564,['target'],,,,,
154,10,0.9050252,['target'],,,,,
155,10,0.9257071,['target'],,,,,
157,10,1.206229,['target'],,,,,
163,10,0.8616238,['target'],,,,,
166,10,1.1148657,['target'],,,,,
169,10,1.3756354,['target'],,,,,
170,10,1.0642646,['target'],,,,,
172,10,1.3954925,['target'],,,,,
173,10,1.2741411,['target'],,,,,
175,10,1.1173323,['target'],,,,,
177,10,1.546875,['target'],,,,,
180,10,1.0958843,['target'],,,,,
182,10,1.0521307,['target'],,,,,
183,10,1.9226528,['target'],,,,,
185,10,1.5162885,['target'],,,,,
188,10,0.8708923,['target'],,,,,
192,10,1.2837896,['target'],,,,,
195,10,1.289795,['target'],,,,,
196,10,1.4556649,['target'],,,,,
197,10,1.0349292,['target'],,,,,
199,10,1.249558,['target'],,,,,
0,10,1.434299684,['target'],,,,,
1,10,1.288731074,['target'],,,,,
3,10,1.203953901,['target'],,,,,
6,10,1.17266629,['target'],,,,,
8,10,0.98119995,['target'],,,,,
10,10,1.023106745,['target'],,,,,
13,10,0.76557604,['target'],,,,,
15,10,1.242558232,['target'],,,,,
16,10,1.040003964,['target'],,,,,
18,10,1.133367934,['target'],,,,,
21,10,0.968540129,['target'],,,,,
22,10,1.649010952,['target'],,,,,
23,10,2.824920023,['target'],,,,,
29,10,1.250603958,['target'],,,,,
30,10,1.661253189,['target'],,,,,
32,10,0.976820655,['target'],,,,,
33,10,1.445980441,['target'],,,,,
37,10,0.948098373,['target'],,,,,
41,10,1.193317286,['target'],,,,,
43,10,1.166331486,['target'],,,,,
44,10,1.1300123,['target'],,,,,
47,10,1.036889395,['target'],,,,,
49,10,1.329496462,['target'],,,,,
50,10,5.113167687,['target'],,,,,
51,10,2.146117646,['target'],,,,,
52,10,1.704607309,['target'],,,,,
53,10,1.100458791,['target'],,,,,
54,10,1.152547668,['target'],,,,,
55,10,1.270586509,['target'],,,,,
58,10,1.346888813,['target'],,,,,
61,10,1.167071502,['target'],,,,,
63,10,0.968567172,['target'],,,,,
64,10,0.994725902,['target'],,,,,
65,10,1.509534231,['target'],,,,,
69,10,1.25997612,['target'],,,,,
72,10,0.830703968,['target'],,,,,
73,10,1.241437675,['target'],,,,,
80,10,1.018793776,['target'],,,,,
81,10,1.217259875,['target'],,,,,
83,10,1.592723726,['target'],,,,,
84,10,1.508089352,['target'],,,,,
85,10,2.021557516,['target'],,,,,
87,10,1.446127713,['target'],,,,,
88,10,1.219659757,['target'],,,,,
90,10,1.255835803,['target'],,,,,
93,10,1.019085147,['target'],,,,,
94,10,1.439481127,['target'],,,,,
95,10,1.542719401,['target'],,,,,
97,10,1.186953017,['target'],,,,,
99,10,1.291576216,['target'],,,,,
103,10,0.932903833,['target'],,,,,
106,10,1.25252727,['target'],,,,,
107,10,0.938847758,['target'],,,,,
108,10,1.012124834,['target'],,,,,
109,10,0.883970934,['target'],,,,,
110,10,1.247094321,['target'],,,,,
111,10,1.019965703,['target'],,,,,
113,10,1.229664559,['target'],,,,,
114,10,2.436575206,['target'],,,,,
115,10,1.27392787,['target'],,,,,
116,10,1.028742836,['target'],,,,,
117,10,2.480043855,['target'],,,,,
118,10,1.108257649,['target'],,,,,
120,10,1.355992408,['target'],,,,,
121,10,1.248782382,['target'],,,,,
122,10,1.086749009,['target'],,,,,
125,10,0.859027402,['target'],,,,,
126,10,2.970958842,['target'],,,,,
127,10,1.00098529,['target'],,,,,
130,10,1.058339862,['target'],,,,,
131,10,1.146059958,['target'],,,,,
132,10,1.162631583,['target'],,,,,
134,10,1.727358059,['target'],,,,,
136,10,1.321547481,['target'],,,,,
137,10,1.374312515,['target'],,,,,
139,10,1.566010995,['target'],,,,,
140,10,1.050570629,['target'],,,,,
143,10,1.134464803,['target'],,,,,
147,10,1.058115133,['target'],,,,,
149,10,1.426942648,['target'],,,,,
151,10,1.324909994,['target'],,,,,
155,10,1.218768807,['target'],,,,,
156,10,1.153033006,['target'],,,,,
157,10,1.117217148,['target'],,,,,
158,10,1.249680296,['target'],,,,,
159,10,1.531592702,['target'],,,,,
162,10,1.336393638,['target'],,,,,
163,10,1.01221418,['target'],,,,,
168,10,1.366068599,['target'],,,,,
169,10,1.74884321,['target'],,,,,
172,10,1.149610889,['target'],,,,,
174,10,1.260112061,['target'],,,,,
175,10,1.061848209,['target'],,,,,
176,10,1.143759533,['target'],,,,,
177,10,2.021661272,['target'],,,,,
178,10,1.214488606,['target'],,,,,
179,10,2.272108483,['target'],,,,,
180,10,0.980580037,['target'],,,,,
181,10,1.158900852,['target'],,,,,
182,10,1.288947609,['target'],,,,,
185,10,1.038365665,['target'],,,,,
188,10,1.06031528,['target'],,,,,
191,10,1.35892189,['target'],,,,,
192,10,0.905928812,['target'],,,,,
193,10,1.326825465,['target'],,,,,
194,10,1.11684871,['target'],,,,,
196,10,1.546506045,['target'],,,,,
197,10,1.39928362,['target'],,,,,
198,10,1.605282477,['target'],,,,,
0,10,1.434299684,['target'],,,,,
1,10,1.288731074,['target'],,,,,
3,10,1.203953901,['target'],,,,,
6,10,1.17266629,['target'],,,,,
8,10,0.98119995,['target'],,,,,
10,10,1.023106745,['target'],,,,,
13,10,0.76557604,['target'],,,,,
15,10,1.242558232,['target'],,,,,
16,10,1.040003964,['target'],,,,,
18,10,1.133367934,['target'],,,,,
21,10,0.968540129,['target'],,,,,
22,10,1.649010952,['target'],,,,,
23,10,2.824920023,['target'],,,,,
29,10,1.250603958,['target'],,,,,
30,10,1.661253189,['target'],,,,,
32,10,0.976820655,['target'],,,,,
33,10,1.445980441,['target'],,,,,
37,10,0.948098373,['target'],,,,,
41,10,1.193317286,['target'],,,,,
43,10,1.166331486,['target'],,,,,
44,10,1.1300123,['target'],,,,,
47,10,1.036889395,['target'],,,,,
49,10,1.329496462,['target'],,,,,
50,10,5.113167687,['target'],,,,,
51,10,2.146117646,['target'],,,,,
52,10,1.704607309,['target'],,,,,
53,10,1.100458791,['target'],,,,,
54,10,1.152547668,['target'],,,,,
55,10,1.270586509,['target'],,,,,
58,10,1.346888813,['target'],,,,,
61,10,1.167071502,['target'],,,,,
63,10,0.968567172,['target'],,,,,
64,10,0.994725902,['target'],,,,,
65,10,1.509534231,['target'],,,,,
69,10,1.25997612,['target'],,,,,
72,10,0.830703968,['target'],,,,,
73,10,1.241437675,['target'],,,,,
80,10,1.018793776,['target'],,,,,
81,10,1.217259875,['target'],,,,,
83,10,1.592723726,['target'],,,,,
84,10,1.508089352,['target'],,,,,
85,10,2.021557516,['target'],,,,,
87,10,1.446127713,['target'],,,,,
88,10,1.219659757,['target'],,,,,
90,10,1.255835803,['target'],,,,,
93,10,1.019085147,['target'],,,,,
94,10,1.439481127,['target'],,,,,
95,10,1.542719401,['target'],,,,,
97,10,1.186953017,['target'],,,,,
99,10,1.291576216,['target'],,,,,
103,10,0.932903833,['target'],,,,,
106,10,1.25252727,['target'],,,,,
107,10,0.938847758,['target'],,,,,
108,10,1.012124834,['target'],,,,,
109,10,0.883970934,['target'],,,,,
110,10,1.247094321,['target'],,,,,
111,10,1.019965703,['target'],,,,,
113,10,1.229664559,['target'],,,,,
114,10,2.436575206,['target'],,,,,
115,10,1.27392787,['target'],,,,,
116,10,1.028742836,['target'],,,,,
117,10,2.480043855,['target'],,,,,
118,10,1.108257649,['target'],,,,,
120,10,1.355992408,['target'],,,,,
121,10,1.248782382,['target'],,,,,
122,10,1.086749009,['target'],,,,,
125,10,0.859027402,['target'],,,,,
126,10,2.970958842,['target'],,,,,
127,10,1.00098529,['target'],,,,,
130,10,1.058339862,['target'],,,,,
131,10,1.146059958,['target'],,,,,
132,10,1.162631583,['target'],,,,,
134,10,1.727358059,['target'],,,,,
136,10,1.321547481,['target'],,,,,
137,10,1.374312515,['target'],,,,,
139,10,1.566010995,['target'],,,,,
140,10,1.050570629,['target'],,,,,
143,10,1.134464803,['target'],,,,,
147,10,1.058115133,['target'],,,,,
149,10,1.426942648,['target'],,,,,
151,10,1.324909994,['target'],,,,,
155,10,1.218768807,['target'],,,,,
156,10,1.153033006,['target'],,,,,
157,10,1.117217148,['target'],,,,,
158,10,1.249680296,['target'],,,,,
159,10,1.531592702,['target'],,,,,
162,10,1.336393638,['target'],,,,,
163,10,1.01221418,['target'],,,,,
168,10,1.366068599,['target'],,,,,
169,10,1.74884321,['target'],,,,,
172,10,1.149610889,['target'],,,,,
174,10,1.260112061,['target'],,,,,
175,10,1.061848209,['target'],,,,,
176,10,1.143759533,['target'],,,,,
177,10,2.021661272,['target'],,,,,
178,10,1.214488606,['target'],,,,,
179,10,2.272108483,['target'],,,,,
180,10,0.980580037,['target'],,,,,
181,10,1.158900852,['target'],,,,,
182,10,1.288947609,['target'],,,,,
185,10,1.038365665,['target'],,,,,
188,10,1.06031528,['target'],,,,,
191,10,1.35892189,['target'],,,,,
192,10,0.905928812,['target'],,,,,
193,10,1.326825465,['target'],,,,,
194,10,1.11684871,['target'],,,,,
196,10,1.546506045,['target'],,,,,
197,10,1.39928362,['target'],,,,,
198,10,1.605282477,['target'],,,,,
0,10,2.7341769,['target'],,,,,
1,10,1.7624339,['target'],,,,,
2,10,2.1532638,['target'],,,,,
4,10,1.2646928,['target'],,,,,
7,10,1.5495286,['target'],,,,,
9,10,2.000865,['target'],,,,,
11,10,1.2834977,['target'],,,,,
12,10,1.06729,['target'],,,,,
13,10,1.638479,['target'],,,,,
16,10,1.8908285,['target'],,,,,
20,10,1.5795374,['target'],,,,,
25,10,1.1972475,['target'],,,,,
26,10,1.234116,['target'],,,,,
27,10,1.4579155,['target'],,,,,
30,10,1.416868,['target'],,,,,
31,10,1.4482063,['target'],,,,,
32,10,1.399205,['target'],,,,,
33,10,1.6699517,['target'],,,,,
35,10,1.7076112,['target'],,,,,
36,10,1.4250347,['target'],,,,,
37,10,2.0818962,['target'],,,,,
43,10,2.328875,['target'],,,,,
44,10,1.6702922,['target'],,,,,
45,10,1.4032949,['target'],,,,,
47,10,1.6030094,['target'],,,,,
50,10,1.4632308,['target'],,,,,
52,10,1.3183884,['target'],,,,,
53,10,1.3476582,['target'],,,,,
54,10,1.3529015,['target'],,,,,
55,10,1.1900777,['target'],,,,,
58,10,1.4548789,['target'],,,,,
59,10,1.5105053,['target'],,,,,
60,10,1.3322479,['target'],,,,,
61,10,1.4503035,['target'],,,,,
62,10,1.4023084,['target'],,,,,
63,10,1.5352278,['target'],,,,,
64,10,1.7350119,['target'],,,,,
67,10,1.714678,['target'],,,,,
68,10,1.1968417,['target'],,,,,
70,10,1.3903657,['target'],,,,,
71,10,1.4603576,['target'],,,,,
72,10,1.4510429,['target'],,,,,
75,10,1.2769913,['target'],,,,,
77,10,1.4537882,['target'],,,,,
78,10,1.13543,['target'],,,,,
79,10,1.2210103,['target'],,,,,
83,10,1.4955278,['target'],,,,,
84,10,2.0596957,['target'],,,,,
85,10,1.2601409,['target'],,,,,
86,10,1.0356398,['target'],,,,,
87,10,1.4336466,['target'],,,,,
88,10,0.8521125,['target'],,,,,
89,10,1.1240821,['target'],,,,,
92,10,1.2183329,['target'],,,,,
94,10,1.0000531,['target'],,,,,
96,10,1.1082573,['target'],,,,,
99,10,1.1763212,['target'],,,,,
106,10,1.2727357,['target'],,,,,
107,10,0.9798041,['target'],,,,,
108,10,1.5653304,['target'],,,,,
109,10,1.4647682,['target'],,,,,
116,10,1.0430472,['target'],,,,,
118,10,1.4029837,['target'],,,,,
120,10,1.3590912,['target'],,,,,
122,10,0.9545407,['target'],,,,,
123,10,1.2174921,['target'],,,,,
124,10,1.1167481,['target'],,,,,
126,10,1.3712719,['target'],,,,,
131,10,1.5127343,['target'],,,,,
132,10,1.0157191,['target'],,,,,
136,10,1.1710481,['target'],,,,,
138,10,1.3100698,['target'],,,,,
140,10,0.9079951,['target'],,,,,
141,10,1.3704479,['target'],,,,,
142,10,1.7832119,['target'],,,,,
143,10,1.2109152,['target'],,,,,
150,10,1.5781121,['target'],,,,,
151,10,1.0556224,['target'],,,,,
152,10,1.0566862,['target'],,,,,
153,10,1.2302923,['target'],,,,,
154,10,1.1147775,['target'],,,,,
156,10,1.0069652,['target'],,,,,
162,10,1.4530892,['target'],,,,,
163,10,1.2774184,['target'],,,,,
166,10,1.1932611,['target'],,,,,
167,10,1.1010061,['target'],,,,,
169,10,1.1770204,['target'],,,,,
170,10,1.2489757,['target'],,,,,
171,10,2.0111361,['target'],,,,,
172,10,1.1553912,['target'],,,,,
173,10,0.8002717,['target'],,,,,
178,10,1.1573955,['target'],,,,,
182,10,0.8628801,['target'],,,,,
183,10,1.1624778,['target'],,,,,
186,10,1.0508062,['target'],,,,,
187,10,1.0845385,['target'],,,,,
188,10,0.8902812,['target'],,,,,
192,10,1.6002727,['target'],,,,,
193,10,1.2149641,['target'],,,,,
195,10,1.7937801,['target'],,,,,
0,10,1.6061555,['target'],,,,,
1,10,1.1764512,['target'],,,,,
2,10,1.1711056,['target'],,,,,
5,10,1.1586175,['target'],,,,,
6,10,1.0479695,['target'],,,,,
9,10,1.3272298,['target'],,,,,
11,10,1.1174747,['target'],,,,,
12,10,1.4330942,['target'],,,,,
14,10,0.9244583,['target'],,,,,
15,10,1.2952636,['target'],,,,,
16,10,1.395578,['target'],,,,,
17,10,1.1491342,['target'],,,,,
19,10,1.3777159,['target'],,,,,
21,10,1.0713133,['target'],,,,,
24,10,1.9916619,['target'],,,,,
30,10,1.4319401,['target'],,,,,
32,10,1.0435816,['target'],,,,,
34,10,1.4767929,['target'],,,,,
37,10,1.0420939,['target'],,,,,
38,10,0.9399941,['target'],,,,,
39,10,1.153538,['target'],,,,,
40,10,0.9326534,['target'],,,,,
41,10,1.6447021,['target'],,,,,
43,10,1.3290468,['target'],,,,,
44,10,1.1670253,['target'],,,,,
45,10,1.227943,['target'],,,,,
47,10,1.4219761,['target'],,,,,
49,10,0.8971123,['target'],,,,,
50,10,1.176603,['target'],,,,,
53,10,1.1189852,['target'],,,,,
54,10,1.1721415,['target'],,,,,
56,10,1.1191794,['target'],,,,,
58,10,1.5011786,['target'],,,,,
59,10,0.8389216,['target'],,,,,
61,10,1.1015131,['target'],,,,,
63,10,1.927027,['target'],,,,,
65,10,1.3038266,['target'],,,,,
66,10,0.9872726,['target'],,,,,
67,10,1.3788024,['target'],,,,,
69,10,0.9220252,['target'],,,,,
70,10,1.1781709,['target'],,,,,
74,10,1.2026609,['target'],,,,,
75,10,0.9018345,['target'],,,,,
78,10,0.9111272,['target'],,,,,
79,10,1.0312463,['target'],,,,,
81,10,1.1447109,['target'],,,,,
83,10,2.1600162,['target'],,,,,
84,10,1.1958287,['target'],,,,,
85,10,1.7733028,['target'],,,,,
87,10,1.0363003,['target'],,,,,
88,10,1.4322207,['target'],,,,,
92,10,1.4716293,['target'],,,,,
97,10,1.4145395,['target'],,,,,
98,10,1.400527,['target'],,,,,
99,10,1.0377149,['target'],,,,,
100,10,1.5011001,['target'],,,,,
109,10,1.0896661,['target'],,,,,
110,10,2.1477468,['target'],,,,,
111,10,1.0439527,['target'],,,,,
114,10,1.1647681,['target'],,,,,
115,10,0.964894,['target'],,,,,
117,10,0.8150789,['target'],,,,,
124,10,1.1230566,['target'],,,,,
125,10,0.9366513,['target'],,,,,
126,10,1.1389249,['target'],,,,,
130,10,1.3003762,['target'],,,,,
132,10,1.3052839,['target'],,,,,
133,10,1.3028931,['target'],,,,,
134,10,1.5173097,['target'],,,,,
138,10,0.9091741,['target'],,,,,
144,10,0.9629935,['target'],,,,,
152,10,1.2149082,['target'],,,,,
154,10,1.017021,['target'],,,,,
156,10,2.2651595,['target'],,,,,
157,10,0.9085213,['target'],,,,,
160,10,1.0452221,['target'],,,,,
161,10,1.3068465,['target'],,,,,
167,10,1.1208855,['target'],,,,,
174,10,2.0880869,['target'],,,,,
177,10,1.3038544,['target'],,,,,
181,10,1.4882371,['target'],,,,,
183,10,0.9423642,['target'],,,,,
189,10,0.9734018,['target'],,,,,
190,10,1.5307817,['target'],,,,,
191,10,1.1439571,['target'],,,,,
192,10,1.086805,['target'],,,,,
193,10,1.1498313,['target'],,,,,
194,10,1.4836859,['target'],,,,,
198,10,1.1659018,['target'],,,,,
